WordItem,WordColor,thisN,thisTrialN,thisRepN,key_resp.keys,key_resp.rt,key_resp.duration,trials.thisRepN,trials.thisTrialN,trials.thisN,trials.thisIndex,trials_2.thisRepN,trials_2.thisTrialN,trials_2.thisN,trials_2.thisIndex,thisRow.t,notes,WelcomeScreen.started,textWelcome.started,keyWelcome.started,WelcomeScreen.stopped,keyWelcome.keys,keyWelcome.rt,keyWelcome.duration,BlankScreen.started,textBlank.started,textBlank.stopped,BlankScreen.stopped,Instructions.started,textInstructions.started,keyInstructions.started,Instructions.stopped,keyInstructions.keys,keyInstructions.rt,keyInstructions.duration,StudyTrials.started,textStudyTrials.started,StudyTrials.stopped,WaitScreen.started,textWaitScreen.started,keyWaitScreen.started,WaitScreen.stopped,keyWaitScreen.keys,keyWaitScreen.rt,keyWaitScreen.duration,blank_screen.started,textblank.started,textblank.stopped,blank_screen.stopped,y_n_screen.started,text_y_n_screen.started,key_y_n.started,y_n_screen.stopped,key_y_n.keys,key_y_n.rt,key_y_n.duration,BlankScreen_2.started,text_blankscreen.started,text_blankscreen.stopped,BlankScreen_2.stopped,TestTrials.started,textTestTrials.started,key_resp.started,TestTrials.stopped,trials_2.key_resp.keys,trials_2.key_resp.rt,trials_2.key_resp.duration,EndScreen.started,text.started,participant,session,date,expName,psychopyVersion,frameRate,expStart,
,,,,,,,,,,,,,,,,,,0.0036229999968782067,0.009529400005703792,0.009529400005703792,1.6656873000029009,space,1.6339315999939572,None,,,,,,,,,,,,,,,,,,,,,,,,,,,,,,,,,,,,,,,,,,,,,,707915,001,2024-12-01_22h20.11.170,short term memory,2024.2.4,59.899536497718664,2024-12-01 22h20.20.253237 +0530,
,,,,,,,,,,,,,,,,,,,,,,,,,1.6657961000018986,1.673739400008344,2.1740702999959467,2.160464700005832,,,,,,,,,,,,,,,,,,,,,,,,,,,,,,,,,,,,,,,,,,707915,001,2024-12-01_22h20.11.170,short term memory,2024.2.4,59.899536497718664,2024-12-01 22h20.20.253237 +0530,
,,,,,,,,,,,,,,,,,,,,,,,,,,,,,2.1605780000099912,2.1740702999959467,2.1740702999959467,2.7268139000079827,space,0.5450364999996964,None,,,,,,,,,,,,,,,,,,,,,,,,,,,,,,,,,,,707915,001,2024-12-01_22h20.11.170,short term memory,2024.2.4,59.899536497718664,2024-12-01 22h20.20.253237 +0530,
vexed,blue,0,0,0,,,,0,0,0,2,,,,,2.7488850000081584,,,,,,,,,4.740739600005327,4.757360999996308,,5.241310099998373,,,,,,,,2.7439030000095954,2.7488850000081584,4.740658700000495,,,,,,,,,,,,,,,,,,,,,,,,,,,,,,,,707915,001,2024-12-01_22h20.11.170,short term memory,2024.2.4,59.899536497718664,2024-12-01 22h20.20.253237 +0530,
excited,yellow,1,1,0,,,,0,1,1,3,,,,,5.25708160000795,,,,,,,,,7.240981700000702,7.2573062000010395,,7.741292599996086,,,,,,,,5.247832200009725,5.25708160000795,7.240900899996632,,,,,,,,,,,,,,,,,,,,,,,,,,,,,,,,707915,001,2024-12-01_22h20.11.170,short term memory,2024.2.4,59.899536497718664,2024-12-01 22h20.20.253237 +0530,
depression,blue,2,2,0,,,,0,2,2,1,,,,,7.757072000007611,,,,,,,,,9.74120760000369,9.757258700003149,,10.241022600006545,,,,,,,,7.748868800001219,7.757072000007611,9.741113700001733,,,,,,,,,,,,,,,,,,,,,,,,,,,,,,,,707915,001,2024-12-01_22h20.11.170,short term memory,2024.2.4,59.899536497718664,2024-12-01 22h20.20.253237 +0530,
content,yellow,3,3,0,,,,0,3,3,5,,,,,10.25688519999676,,,,,,,,,12.241037500003586,12.257098900008714,,12.740869200002635,,,,,,,,10.246823399997083,10.25688519999676,12.240934300003573,,,,,,,,,,,,,,,,,,,,,,,,,,,,,,,,707915,001,2024-12-01_22h20.11.170,short term memory,2024.2.4,59.899536497718664,2024-12-01 22h20.20.253237 +0530,
joyous,yellow,4,4,0,,,,0,4,4,4,,,,,12.756627099995967,,,,,,,,,14.740756600003806,14.756679600002826,,15.240866499996628,,,,,,,,12.748048499997822,12.756627099995967,14.74067680000735,,,,,,,,,,,,,,,,,,,,,,,,,,,,,,,,707915,001,2024-12-01_22h20.11.170,short term memory,2024.2.4,59.899536497718664,2024-12-01 22h20.20.253237 +0530,
anxiety,blue,5,5,0,,,,0,5,5,0,,,,,15.256481899996288,,,,,,,,,17.240908699997817,17.256465099999332,,17.74054870000691,,,,,,,,15.246418499998981,15.256481899996288,17.240803499997128,,,,,,,,,,,,,,,,,,,,,,,,,,,,,,,,707915,001,2024-12-01_22h20.11.170,short term memory,2024.2.4,59.899536497718664,2024-12-01 22h20.20.253237 +0530,
,,,,,,,,,,,,,,,,,,,,,,,,,,,,,,,,,,,,,,,17.740790600000764,17.75659840001026,17.75659840001026,19.626088300006813,1,1.8525253999978304,None,,,,,,,,,,,,,,,,,,,,,,,,,707915,001,2024-12-01_22h20.11.170,short term memory,2024.2.4,59.899536497718664,2024-12-01 22h20.20.253237 +0530,
,,,,,,,,,,,,,,,,,,,,,,,,,,,,,,,,,,,,,,,,,,,,,,19.62618800000928,19.63980590000574,20.139556399997673,20.12441679999756,,,,,,,,,,,,,,,,,,,,,707915,001,2024-12-01_22h20.11.170,short term memory,2024.2.4,59.899536497718664,2024-12-01 22h20.20.253237 +0530,
,,,,,,,,,,,,,,,,,,,,,,,,,,,,,,,,,,,,,,,,,,,,,,,,,,20.12454499999876,20.139556399997673,20.139556399997673,21.791370899998583,space,1.6486988999968162,None,,,,,,,,,,,,,,707915,001,2024-12-01_22h20.11.170,short term memory,2024.2.4,59.899536497718664,2024-12-01 22h20.20.253237 +0530,
,,,,,,,,,,,,,,,,,,,,,,,,,,,,,,,,,,,,,,,,,,,,,,,,,,,,,,,,,21.791471899996395,21.806048900005408,22.307031000003917,22.290677099997993,,,,,,,,,,707915,001,2024-12-01_22h20.11.170,short term memory,2024.2.4,59.899536497718664,2024-12-01 22h20.20.253237 +0530,
aggravated,None,0,0,0,n,1.1192257000075188,None,,,,,0,0,0,9,22.307031000003917,,,,,,,,,23.442871499995817,23.456247299996903,23.95610900000611,23.941489799995907,,,,,,,,,,,,,,,,,,,,,,,,,,,,,,,,,22.30256890000601,22.307031000003917,22.307031000003917,23.442735600008746,n,1.1192257000075188,None,,,707915,001,2024-12-01_22h20.11.170,short term memory,2024.2.4,59.899536497718664,2024-12-01 22h20.20.253237 +0530,
vexed,blue,1,1,0,y,0.921114700002363,None,,,,,0,1,1,2,23.95610900000611,,,,,,,,,24.891768100002082,24.905994100001408,25.405961299999035,25.391476999997394,,,,,,,,,,,,,,,,,,,,,,,,,,,,,,,,,23.94615689999773,23.95610900000611,23.95610900000611,24.891661200003,y,0.921114700002363,None,,,707915,001,2024-12-01_22h20.11.170,short term memory,2024.2.4,59.899536497718664,2024-12-01 22h20.20.253237 +0530,
excited,yellow,2,2,0,y,0.9181982000009157,None,,,,,0,2,2,3,25.405961299999035,,,,,,,,,26.342017900009523,26.356115300004603,26.8557584000082,26.842052799998783,,,,,,,,,,,,,,,,,,,,,,,,,,,,,,,,,25.396596899998258,25.405961299999035,25.405961299999035,26.341872700009844,y,0.9181982000009157,None,,,707915,001,2024-12-01_22h20.11.170,short term memory,2024.2.4,59.899536497718664,2024-12-01 22h20.20.253237 +0530,
ashamed,None,3,3,0,n,1.3258500999945682,None,,,,,0,3,3,8,26.8557584000082,,,,,,,,,28.19123720000789,28.205723100007162,28.705713500006823,28.691091600005166,,,,,,,,,,,,,,,,,,,,,,,,,,,,,,,,,26.84889999999723,26.8557584000082,26.8557584000082,28.191127800004324,n,1.3258500999945682,None,,,707915,001,2024-12-01_22h20.11.170,short term memory,2024.2.4,59.899536497718664,2024-12-01 22h20.20.253237 +0530,
fascinated,None,4,4,0,n,1.4332466000050772,None,,,,,0,4,4,7,28.705713500006823,,,,,,,,,30.142894300006446,30.15567560000636,30.655607799999416,30.640509799995925,,,,,,,,,,,,,,,,,,,,,,,,,,,,,,,,,28.696133300007205,28.705713500006823,28.705713500006823,30.142766899996786,n,1.4332466000050772,None,,,707915,001,2024-12-01_22h20.11.170,short term memory,2024.2.4,59.899536497718664,2024-12-01 22h20.20.253237 +0530,
depression,blue,5,5,0,y,0.798998099999153,None,,,,,0,5,5,1,30.655607799999416,,,,,,,,,31.45842530000664,31.47207810000691,31.972081300002174,31.957826700003352,,,,,,,,,,,,,,,,,,,,,,,,,,,,,,,,,30.64519370000926,30.655607799999416,30.655607799999416,31.458317700002226,y,0.798998099999153,None,,,707915,001,2024-12-01_22h20.11.170,short term memory,2024.2.4,59.899536497718664,2024-12-01 22h20.20.253237 +0530,
calm,None,6,6,0,n,3.3186856000102125,None,,,,,0,6,6,10,31.972081300002174,,,,,,,,,35.30857249999826,35.32211269999971,35.822000000000116,35.80754320000415,,,,,,,,,,,,,,,,,,,,,,,,,,,,,,,,,31.962805500006652,31.972081300002174,31.972081300002174,35.3084358000051,n,3.3186856000102125,None,,,707915,001,2024-12-01_22h20.11.170,short term memory,2024.2.4,59.899536497718664,2024-12-01 22h20.20.253237 +0530,
content,yellow,7,7,0,y,0.8536376999982167,None,,,,,0,7,7,5,35.822000000000116,,,,,,,,,36.69121859999723,36.705203000004985,37.205186799998046,37.191044000006514,,,,,,,,,,,,,,,,,,,,,,,,,,,,,,,,,35.81176240000059,35.822000000000116,35.822000000000116,36.69108990000677,y,0.8536376999982167,None,,,707915,001,2024-12-01_22h20.11.170,short term memory,2024.2.4,59.899536497718664,2024-12-01 22h20.20.253237 +0530,
jealous,,8,8,0,n,2.1441750999947544,None,,,,,0,8,8,6,37.205186799998046,,,,,,,,,39.35782269999618,39.371839100000216,39.87178870000935,39.85700889999862,,,,,,,,,,,,,,,,,,,,,,,,,,,,,,,,,37.19574589999684,37.205186799998046,37.205186799998046,39.357697300001746,n,2.1441750999947544,None,,,707915,001,2024-12-01_22h20.11.170,short term memory,2024.2.4,59.899536497718664,2024-12-01 22h20.20.253237 +0530,
anxiety,blue,9,9,0,y,2.564405599987367,None,,,,,0,9,9,0,39.87178870000935,,,,,,,,,42.441773500002455,42.455031000004965,42.95491580000089,42.94032190000871,,,,,,,,,,,,,,,,,,,,,,,,,,,,,,,,,39.862462500008405,39.87178870000935,39.87178870000935,42.44163739999931,y,2.564405599987367,None,,,707915,001,2024-12-01_22h20.11.170,short term memory,2024.2.4,59.899536497718664,2024-12-01 22h20.20.253237 +0530,
joyous,yellow,10,10,0,y,0.7773990999994567,None,,,,,0,10,10,4,42.95491580000089,,,,,,,,,43.740595700000995,43.7549166999961,44.25489180001023,44.23997429999872,,,,,,,,,,,,,,,,,,,,,,,,,,,,,,,,,42.944617500004824,42.95491580000089,42.95491580000089,43.74043970000639,y,0.7773990999994567,None,,,707915,001,2024-12-01_22h20.11.170,short term memory,2024.2.4,59.899536497718664,2024-12-01 22h20.20.253237 +0530,
delighted,None,11,11,0,n,1.0092891999956919,None,,,,,0,11,11,11,44.25489180001023,,,,,,,,,45.27509999999893,45.288224400006584,45.7882510000054,45.77205130000948,,,,,,,,,,,,,,,,,,,,,,,,,,,,,,,,,44.24439259999781,44.25489180001023,44.25489180001023,45.274688300007256,n,1.0092891999956919,None,,,707915,001,2024-12-01_22h20.11.170,short term memory,2024.2.4,59.899536497718664,2024-12-01 22h20.20.253237 +0530,
,,,,,,,,,,,,,,,,,,,,,,,,,,,,,,,,,,,,,,,,,,,,,,,,,,,,,,,,,,,,,,,,,,,,45.772194899996975,45.7882510000054,,,,,,,,
