WordItem,WordColor,thisN,thisTrialN,thisRepN,key_resp.keys,key_resp.rt,key_resp.duration,trials.thisRepN,trials.thisTrialN,trials.thisN,trials.thisIndex,trials_2.thisRepN,trials_2.thisTrialN,trials_2.thisN,trials_2.thisIndex,thisRow.t,notes,WelcomeScreen.started,textWelcome.started,keyWelcome.started,WelcomeScreen.stopped,keyWelcome.keys,keyWelcome.rt,keyWelcome.duration,BlankScreen.started,textBlank.started,textBlank.stopped,BlankScreen.stopped,Instructions.started,textInstructions.started,keyInstructions.started,Instructions.stopped,keyInstructions.keys,keyInstructions.rt,keyInstructions.duration,StudyTrials.started,textStudyTrials.started,StudyTrials.stopped,WaitScreen.started,textWaitScreen.started,keyWaitScreen.started,WaitScreen.stopped,keyWaitScreen.keys,keyWaitScreen.rt,keyWaitScreen.duration,blank_screen.started,textblank.started,textblank.stopped,blank_screen.stopped,y_n_screen.started,text_y_n_screen.started,key_y_n.started,y_n_screen.stopped,key_y_n.keys,key_y_n.rt,key_y_n.duration,BlankScreen_2.started,text_blankscreen.started,text_blankscreen.stopped,BlankScreen_2.stopped,TestTrials.started,textTestTrials.started,key_resp.started,TestTrials.stopped,trials_2.key_resp.keys,trials_2.key_resp.rt,trials_2.key_resp.duration,EndScreen.started,text.started,participant,session,date,expName,psychopyVersion,frameRate,expStart,
,,,,,,,,,,,,,,,,,,0.0032484999974258244,0.007350800005951896,0.007350800005951896,4.272551999994903,space,4.255852300004335,None,,,,,,,,,,,,,,,,,,,,,,,,,,,,,,,,,,,,,,,,,,,,,,350439,001,2024-12-01_23h05.08.382,short term memory,2024.2.4,59.92649416414569,2024-12-01 23h05.19.919085 +0530,
,,,,,,,,,,,,,,,,,,,,,,,,,4.272625900004641,4.281233999994583,4.781388600007631,4.766472899995279,,,,,,,,,,,,,,,,,,,,,,,,,,,,,,,,,,,,,,,,,,350439,001,2024-12-01_23h05.08.382,short term memory,2024.2.4,59.92649416414569,2024-12-01 23h05.19.919085 +0530,
,,,,,,,,,,,,,,,,,,,,,,,,,,,,,4.766563800003496,4.781388600007631,4.781388600007631,5.417474500005483,space,0.6330755000089994,None,,,,,,,,,,,,,,,,,,,,,,,,,,,,,,,,,,,350439,001,2024-12-01_23h05.08.382,short term memory,2024.2.4,59.92649416414569,2024-12-01 23h05.19.919085 +0530,
vexed,blue,0,0,0,,,,0,0,0,2,,,,,5.441147300007287,,,,,,,,,7.432134100003168,7.447677300006035,,7.931714699996519,,,,,,,,5.435645999998087,5.441147300007287,7.431830400004401,,,,,,,,,,,,,,,,,,,,,,,,,,,,,,,,350439,001,2024-12-01_23h05.08.382,short term memory,2024.2.4,59.92649416414569,2024-12-01 23h05.19.919085 +0530,
excited,yellow,1,1,0,,,,0,1,1,3,,,,,7.947538000007626,,,,,,,,,9.931525100008002,9.94795349999913,,10.431613799999468,,,,,,,,7.937677399997483,7.947538000007626,9.931453900004271,,,,,,,,,,,,,,,,,,,,,,,,,,,,,,,,350439,001,2024-12-01_23h05.08.382,short term memory,2024.2.4,59.92649416414569,2024-12-01 23h05.19.919085 +0530,
joyous,yellow,2,2,0,,,,0,2,2,4,,,,,10.44751019999967,,,,,,,,,12.430974300004891,12.447327400004724,,12.931565399994724,,,,,,,,10.439248399998178,10.44751019999967,12.43088379999972,,,,,,,,,,,,,,,,,,,,,,,,,,,,,,,,350439,001,2024-12-01_23h05.08.382,short term memory,2024.2.4,59.92649416414569,2024-12-01 23h05.19.919085 +0530,
depression,blue,3,3,0,,,,0,3,3,1,,,,,12.947290299998713,,,,,,,,,14.931377700006124,14.947640800004592,,15.431606199999806,,,,,,,,12.937582700003986,12.947290299998713,14.931254800001625,,,,,,,,,,,,,,,,,,,,,,,,,,,,,,,,350439,001,2024-12-01_23h05.08.382,short term memory,2024.2.4,59.92649416414569,2024-12-01 23h05.19.919085 +0530,
content,yellow,4,4,0,,,,0,4,4,5,,,,,15.447254099999554,,,,,,,,,17.43116760000703,17.447183800002676,,17.93081570000504,,,,,,,,15.436341000007815,15.447254099999554,17.43107790000795,,,,,,,,,,,,,,,,,,,,,,,,,,,,,,,,350439,001,2024-12-01_23h05.08.382,short term memory,2024.2.4,59.92649416414569,2024-12-01 23h05.19.919085 +0530,
anxiety,blue,5,5,0,,,,0,5,5,0,,,,,17.94711950000783,,,,,,,,,19.93070599999919,19.94720419999794,,20.43078300000343,,,,,,,,17.936335799997323,17.94711950000783,19.93062880000798,,,,,,,,,,,,,,,,,,,,,,,,,,,,,,,,350439,001,2024-12-01_23h05.08.382,short term memory,2024.2.4,59.92649416414569,2024-12-01 23h05.19.919085 +0530,
,,,,,,,,,,,,,,,,,,,,,,,,,,,,,,,,,,,,,,,20.431022000004305,20.446939100002055,20.446939100002055,25.082969299997785,1,4.63141529999848,None,,,,,,,,,,,,,,,,,,,,,,,,,350439,001,2024-12-01_23h05.08.382,short term memory,2024.2.4,59.92649416414569,2024-12-01 23h05.19.919085 +0530,
,,,,,,,,,,,,,,,,,,,,,,,,,,,,,,,,,,,,,,,,,,,,,,25.083143399999244,25.096801499996218,25.596978500005207,25.582035400002496,,,,,,,,,,,,,,,,,,,,,350439,001,2024-12-01_23h05.08.382,short term memory,2024.2.4,59.92649416414569,2024-12-01 23h05.19.919085 +0530,
,,,,,,,,,,,,,,,,,,,,,,,,,,,,,,,,,,,,,,,,,,,,,,,,,,25.58222090000345,25.596978500005207,25.596978500005207,28.113986399999703,space,2.502847499999916,None,,,,,,,,,,,,,,350439,001,2024-12-01_23h05.08.382,short term memory,2024.2.4,59.92649416414569,2024-12-01 23h05.19.919085 +0530,
,,,,,,,,,,,,,,,,,,,,,,,,,,,,,,,,,,,,,,,,,,,,,,,,,,,,,,,,,28.11405519999971,28.12944069999503,28.634310900000855,28.614883500005817,,,,,,,,,,350439,001,2024-12-01_23h05.08.382,short term memory,2024.2.4,59.92649416414569,2024-12-01 23h05.19.919085 +0530,
calm,None,0,0,0,n,1.4358551000041189,None,,,,,0,0,0,10,28.634310900000855,,,,,,,,,30.082804799996666,30.09672750000027,30.59642359999998,30.581718600005843,,,,,,,,,,,,,,,,,,,,,,,,,,,,,,,,,28.62960749999911,28.634310900000855,28.634310900000855,30.0826531000057,n,1.4358551000041189,None,,,350439,001,2024-12-01_23h05.08.382,short term memory,2024.2.4,59.92649416414569,2024-12-01 23h05.19.919085 +0530,
jealous,,1,1,0,n,1.2110147999919718,None,,,,,0,1,1,6,30.59642359999998,,,,,,,,,31.81588229999761,31.829398999994737,32.32941770000616,32.31368449999718,,,,,,,,,,,,,,,,,,,,,,,,,,,,,,,,,30.586260399999446,30.59642359999998,30.59642359999998,31.815766100000474,n,1.2110147999919718,None,,,350439,001,2024-12-01_23h05.08.382,short term memory,2024.2.4,59.92649416414569,2024-12-01 23h05.19.919085 +0530,
ashamed,None,2,2,0,n,0.7796650000091176,None,,,,,0,2,2,8,32.32941770000616,,,,,,,,,33.11400190000131,33.12917460000608,33.62972929999523,33.61430200000177,,,,,,,,,,,,,,,,,,,,,,,,,,,,,,,,,32.3176003999979,32.32941770000616,32.32941770000616,33.11391870000807,n,0.7796650000091176,None,,,350439,001,2024-12-01_23h05.08.382,short term memory,2024.2.4,59.92649416414569,2024-12-01 23h05.19.919085 +0530,
excited,yellow,3,3,0,y,1.2991346000053454,None,,,,,0,3,3,3,33.62972929999523,,,,,,,,,34.93205810000654,34.94629290000012,35.44610339999781,35.43145070000901,,,,,,,,,,,,,,,,,,,,,,,,,,,,,,,,,33.61873220000416,33.62972929999523,33.62972929999523,34.931948600002215,y,1.2991346000053454,None,,,350439,001,2024-12-01_23h05.08.382,short term memory,2024.2.4,59.92649416414569,2024-12-01 23h05.19.919085 +0530,
delighted,None,4,4,0,n,0.9291809000133071,None,,,,,0,4,4,11,35.44610339999781,,,,,,,,,36.382509700008086,36.39602790000208,36.8959307000041,36.88139379999484,,,,,,,,,,,,,,,,,,,,,,,,,,,,,,,,,35.436187600003905,35.44610339999781,35.44610339999781,36.382374799999525,n,0.9291809000133071,None,,,350439,001,2024-12-01_23h05.08.382,short term memory,2024.2.4,59.92649416414569,2024-12-01 23h05.19.919085 +0530,
joyous,yellow,5,5,0,y,1.0400602000008803,None,,,,,0,5,5,4,36.8959307000041,,,,,,,,,37.948391099998844,37.96272179999505,38.46251769999799,38.447964899998624,,,,,,,,,,,,,,,,,,,,,,,,,,,,,,,,,36.886613800001214,36.8959307000041,36.8959307000041,37.94827839999925,y,1.0400602000008803,None,,,350439,001,2024-12-01_23h05.08.382,short term memory,2024.2.4,59.92649416414569,2024-12-01 23h05.19.919085 +0530,
anxiety,blue,6,6,0,y,1.4128094999905443,None,,,,,0,6,6,0,38.46251769999799,,,,,,,,,39.88217779999832,39.89584349999495,40.3957051000034,40.38105150000774,,,,,,,,,,,,,,,,,,,,,,,,,,,,,,,,,38.452819900005125,38.46251769999799,38.46251769999799,39.88205040000321,y,1.4128094999905443,None,,,350439,001,2024-12-01_23h05.08.382,short term memory,2024.2.4,59.92649416414569,2024-12-01 23h05.19.919085 +0530,
fascinated,None,7,7,0,n,0.8365615000075195,None,,,,,0,7,7,7,40.3957051000034,,,,,,,,,41.248681700002635,41.26257809999515,41.76226550000138,41.747709200004465,,,,,,,,,,,,,,,,,,,,,,,,,,,,,,,,,40.385402600004454,40.3957051000034,40.3957051000034,41.24855150000076,n,0.8365615000075195,None,,,350439,001,2024-12-01_23h05.08.382,short term memory,2024.2.4,59.92649416414569,2024-12-01 23h05.19.919085 +0530,
vexed,blue,8,8,0,y,0.8595587000017986,None,,,,,0,8,8,2,41.76226550000138,,,,,,,,,42.63224310000078,42.64563850000559,43.14562369999476,43.13069540000288,,,,,,,,,,,,,,,,,,,,,,,,,,,,,,,,,41.75385190000816,41.76226550000138,41.76226550000138,42.63205250000465,y,0.8595587000017986,None,,,350439,001,2024-12-01_23h05.08.382,short term memory,2024.2.4,59.92649416414569,2024-12-01 23h05.19.919085 +0530,
aggravated,None,9,9,0,n,0.8272733000048902,None,,,,,0,9,9,9,43.14562369999476,,,,,,,,,43.98185920000833,43.9954635000031,44.49554960000387,44.48059259999718,,,,,,,,,,,,,,,,,,,,,,,,,,,,,,,,,43.136312999995425,43.14562369999476,43.14562369999476,43.981732500004,n,0.8272733000048902,None,,,350439,001,2024-12-01_23h05.08.382,short term memory,2024.2.4,59.92649416414569,2024-12-01 23h05.19.919085 +0530,
content,yellow,10,10,0,y,0.9688024999923073,None,,,,,0,10,10,5,44.49554960000387,,,,,,,,,45.4819598000031,45.49562810000498,45.995247700004256,45.981215599997086,,,,,,,,,,,,,,,,,,,,,,,,,,,,,,,,,44.48569630000566,44.49554960000387,44.49554960000387,45.48181939999631,y,0.9688024999923073,None,,,350439,001,2024-12-01_23h05.08.382,short term memory,2024.2.4,59.92649416414569,2024-12-01 23h05.19.919085 +0530,
depression,blue,11,11,0,y,0.825167999995756,None,,,,,0,11,11,1,45.995247700004256,,,,,,,,,46.83210379999946,46.84541190000891,47.34543489999487,47.330640400003176,,,,,,,,,,,,,,,,,,,,,,,,,,,,,,,,,45.986481200001435,45.995247700004256,45.995247700004256,46.8319657999964,y,0.825167999995756,None,,,350439,001,2024-12-01_23h05.08.382,short term memory,2024.2.4,59.92649416414569,2024-12-01 23h05.19.919085 +0530,
,,,,,,,,,,,,,,,,,,,,,,,,,,,,,,,,,,,,,,,,,,,,,,,,,,,,,,,,,,,,,,,,,,,,47.330860400004894,47.34543489999487,,,,,,,,
